exposure,2000.0ms
wavelength
340,58
341,25
342,6
343,104
344,78
345,88
346,187
347,47
348,181
349,323
350,0
351,0
352,0
353,77
354,113
355,206
356,251
357,107
358,114
359,91
360,105
361,130
362,43
363,1
364,36
365,42
366,99
367,63
368,66
369,32
370,159
371,53
372,56
373,54
374,130
375,62
376,79
377,131
378,22
379,33
380,18
381,35
382,38
383,25
384,31
385,47
386,9
387,59
388,64
389,38
390,0
391,31
392,57
393,58
394,75
395,63
396,39
397,32
398,0
399,0
400,4
401,69
402,50
403,54
404,28
405,26
406,0
407,0
408,11
409,37
410,55
411,4
412,3
413,12
414,45
415,30
416,70
417,24
418,15
419,13
420,38
421,1
422,53
423,68
424,68
425,55
426,61
427,20
428,0
429,51
430,86
431,72
432,20
433,43
434,31
435,10
436,0
437,5
438,0
439,7
440,9
441,0
442,0
443,63
444,15
445,46
446,16
447,26
448,22
449,42
450,23
451,33
452,40
453,84
454,98
455,44
456,5
457,29
458,33
459,68
460,39
461,15
462,44
463,58
464,65
465,15
466,29
467,0
468,21
469,0
470,14
471,17
472,44
473,34
474,1
475,2
476,18
477,27
478,20
479,1
480,74
481,5
482,0
483,31
484,3
485,56
486,24
487,35
488,0
489,0
490,40
491,14
492,39
493,65
494,35
495,0
496,50
497,39
498,85
499,5
500,13
501,41
502,20
503,24
504,28
505,34
506,37
507,0
508,40
509,53
510,79
511,39
512,52
513,93
514,46
515,31
516,19
517,26
518,40
519,44
520,54
521,53
522,1
523,50
524,10
525,21
526,43
527,0
528,23
529,40
530,32
531,44
532,29
533,27
534,63
535,53
536,35
537,23
538,30
539,60
540,58
541,49
542,11
543,22
544,2
545,80
546,50
547,22
548,34
549,22
550,28
551,2
552,4
553,19
554,53
555,40
556,63
557,50
558,66
559,59
560,0
561,41
562,37
563,37
564,4
565,8
566,3
567,32
568,31
569,29
570,48
571,51
572,0
573,6
574,13
575,77
576,21
577,22
578,29
579,58
580,35
581,12
582,41
583,14
584,36
585,88
586,101
587,60
588,78
589,74
590,32
591,77
592,52
593,14
594,28
595,31
596,51
597,52
598,73
599,13
600,56
601,65
602,63
603,43
604,58
605,22
606,41
607,53
608,33
609,77
610,71
611,73
612,80
613,27
614,63
615,83
616,75
617,37
618,98
619,73
620,81
621,97
622,65
623,69
624,73
625,61
626,61
627,68
628,92
629,90
630,91
631,77
632,85
633,60
634,74
635,112
636,99
637,110
638,101
639,101
640,85
641,78
642,89
643,94
644,92
645,94
646,71
647,92
648,65
649,79
650,82
651,113
652,77
653,77
654,79
655,98
656,80
657,109
658,98
659,108
660,84
661,56
662,95
663,92
664,72
665,52
666,86
667,79
668,68
669,85
670,80
671,67
672,74
673,78
674,102
675,81
676,77
677,93
678,50
679,108
680,135
681,105
682,91
683,123
684,86
685,68
686,117
687,132
688,131
689,169
690,142
691,163
692,188
693,223
694,199
695,224
696,195
697,234
698,233
699,234
700,255
701,271
702,280
703,286
704,316
705,342
706,334
707,380
708,353
709,335
710,345
711,304
712,322
713,371
714,361
715,350
716,396
717,346
718,369
719,418
720,384
721,345
722,405
723,423
724,430
725,428
726,426
727,440
728,410
729,395
730,436
731,433
732,416
733,424
734,415
735,423
736,435
737,416
738,418
739,463
740,465
741,435
742,443
743,457
744,448
745,424
746,414
747,455
748,447
749,472
750,459
751,487
752,500
753,465
754,471
755,489
756,508
757,436
758,483
759,475
760,489
761,483
762,563
763,522
764,546
765,520
766,566
767,537
768,512
769,535
770,524
771,571
772,621
773,624
774,582
775,575
776,596
777,581
778,603
779,590
780,620
781,633
782,596
783,619
784,620
785,632
786,611
787,566
788,520
789,540
790,574
791,604
792,623
793,613
794,645
795,648
796,668
797,605
798,649
799,649
800,648
801,669
802,635
803,616
804,684
805,754
806,705
807,683
808,672
809,661
810,727
811,719
812,698
813,727
814,722
815,653
816,687
817,647
818,682
819,642
820,710
821,684
822,687
823,624
824,670
825,623
826,595
827,578
828,627
829,623
830,653
831,664
832,599
833,610
834,610
835,622
836,615
837,637
838,606
839,643
840,581
841,652
842,628
843,628
844,536
845,569
846,627
847,641
848,590
849,611
850,616
851,569
852,609
853,608
854,597
855,630
856,634
857,574
858,563
859,568
860,563
861,587
862,527
863,548
864,616
865,597
866,591
867,587
868,557
869,588
870,602
871,524
872,476
873,491
874,512
875,552
876,588
877,562
878,477
879,570
880,536
881,516
882,551
883,533
884,511
885,501
886,521
887,505
888,450
889,521
890,466
891,508
892,520
893,506
894,458
895,387
896,429
897,433
898,460
899,452
900,368
901,450
902,417
903,390
904,390
905,436
906,368
907,346
908,480
909,374
910,503
911,427
912,390
913,442
914,423
915,338
916,407
917,380
918,499
919,374
920,361
921,403
922,447
923,430
924,342
925,419
926,513
927,422
928,369
929,319
930,367
931,415
932,291
933,440
934,497
935,475
936,473
937,526
938,561
939,435
940,356
941,406
942,314
943,390
944,409
945,409
946,395
947,438
948,440
949,395
950,470
951,368
952,418
953,333
954,333
955,430
956,425
957,356
958,341
959,483
960,362
961,439
962,455
963,412
964,491
965,445
966,317
967,266
968,263
969,371
970,415
971,386
972,398
973,500
974,374
975,405
976,399
977,305
978,494
979,422
980,365
981,467
982,508
983,553
984,401
985,473
986,462
987,420
988,500
989,462
990,510
991,555
992,516
993,571
994,721
995,494
996,474
997,483
998,588
999,607
1000,628
