exposure,2000.0ms
wavelength
340,23
341,0
342,0
343,0
344,0
345,0
346,157
347,43
348,172
349,155
350,0
351,0
352,0
353,0
354,0
355,52
356,189
357,18
358,79
359,0
360,44
361,70
362,16
363,0
364,20
365,38
366,54
367,0
368,0
369,0
370,33
371,6
372,60
373,67
374,53
375,0
376,0
377,104
378,24
379,0
380,13
381,24
382,23
383,30
384,43
385,51
386,0
387,31
388,36
389,21
390,0
391,0
392,24
393,30
394,49
395,36
396,5
397,23
398,0
399,0
400,0
401,14
402,17
403,11
404,6
405,38
406,0
407,0
408,8
409,39
410,65
411,0
412,0
413,7
414,0
415,0
416,29
417,2
418,32
419,0
420,46
421,0
422,40
423,66
424,59
425,42
426,29
427,9
428,0
429,27
430,5
431,41
432,0
433,0
434,0
435,0
436,0
437,16
438,0
439,24
440,20
441,4
442,0
443,25
444,0
445,35
446,0
447,0
448,11
449,20
450,6
451,41
452,86
453,90
454,110
455,35
456,0
457,24
458,48
459,59
460,36
461,0
462,32
463,33
464,84
465,40
466,27
467,1
468,24
469,0
470,33
471,29
472,63
473,30
474,0
475,0
476,21
477,45
478,49
479,14
480,74
481,32
482,43
483,78
484,45
485,56
486,62
487,30
488,0
489,0
490,55
491,40
492,51
493,85
494,58
495,8
496,68
497,49
498,116
499,52
500,45
501,87
502,50
503,32
504,74
505,83
506,66
507,37
508,74
509,65
510,131
511,103
512,118
513,177
514,130
515,79
516,109
517,120
518,143
519,164
520,152
521,175
522,136
523,147
524,138
525,146
526,211
527,185
528,176
529,177
530,170
531,220
532,211
533,249
534,274
535,259
536,234
537,233
538,272
539,300
540,273
541,293
542,272
543,294
544,298
545,342
546,333
547,339
548,334
549,330
550,329
551,307
552,326
553,364
554,402
555,395
556,425
557,431
558,427
559,417
560,390
561,403
562,415
563,444
564,415
565,405
566,414
567,426
568,392
569,415
570,446
571,440
572,398
573,420
574,408
575,474
576,428
577,443
578,418
579,437
580,456
581,434
582,450
583,409
584,453
585,523
586,468
587,444
588,470
589,457
590,398
591,431
592,419
593,404
594,394
595,425
596,444
597,457
598,491
599,432
600,457
601,456
602,469
603,449
604,450
605,419
606,435
607,443
608,422
609,465
610,449
611,433
612,442
613,413
614,442
615,454
616,458
617,380
618,464
619,420
620,446
621,440
622,411
623,421
624,405
625,423
626,428
627,406
628,439
629,426
630,424
631,414
632,427
633,424
634,404
635,460
636,450
637,471
638,425
639,430
640,405
641,410
642,427
643,422
644,390
645,391
646,343
647,353
648,333
649,348
650,328
651,377
652,342
653,319
654,342
655,353
656,322
657,368
658,349
659,345
660,311
661,325
662,347
663,327
664,347
665,304
666,321
667,280
668,283
669,301
670,301
671,309
672,297
673,306
674,315
675,300
676,307
677,319
678,264
679,339
680,379
681,362
682,358
683,387
684,365
685,376
686,432
687,453
688,468
689,554
690,572
691,695
692,788
693,876
694,960
695,1098
696,1198
697,1395
698,1544
699,1691
700,1861
701,2036
702,2211
703,2387
704,2568
705,2725
706,2857
707,3049
708,3140
709,3286
710,3374
711,3461
712,3610
713,3744
714,3863
715,3962
716,4081
717,4141
718,4230
719,4317
720,4384
721,4465
722,4523
723,4641
724,4709
725,4782
726,4842
727,4930
728,4968
729,5049
730,5117
731,5175
732,5275
733,5308
734,5390
735,5408
736,5406
737,5473
738,5528
739,5574
740,5581
741,5610
742,5621
743,5661
744,5716
745,5675
746,5660
747,5746
748,5764
749,5765
750,5851
751,5885
752,5884
753,5887
754,5906
755,5930
756,5948
757,5866
758,5933
759,5957
760,5960
761,6010
762,6076
763,6081
764,6136
765,6174
766,6232
767,6260
768,6247
769,6268
770,6276
771,6333
772,6298
773,6280
774,6217
775,6170
776,6173
777,6116
778,6118
779,6074
780,6088
781,6119
782,6051
783,6015
784,6035
785,5996
786,5940
787,5875
788,5884
789,5865
790,5858
791,5925
792,5939
793,5927
794,5912
795,5937
796,5965
797,5862
798,5859
799,5884
800,5889
801,5947
802,5898
803,5890
804,5904
805,5989
806,5909
807,5879
808,5856
809,5866
810,5801
811,5758
812,5739
813,5751
814,5741
815,5724
816,5615
817,5564
818,5577
819,5503
820,5525
821,5551
822,5522
823,5436
824,5412
825,5418
826,5301
827,5256
828,5334
829,5351
830,5272
831,5323
832,5241
833,5214
834,5230
835,5187
836,5167
837,5223
838,5164
839,5186
840,5117
841,5165
842,5141
843,5111
844,5010
845,5016
846,5014
847,5055
848,4950
849,4895
850,4879
851,4865
852,4853
853,4792
854,4706
855,4682
856,4635
857,4557
858,4502
859,4445
860,4341
861,4330
862,4193
863,4116
864,4106
865,4005
866,3923
867,3858
868,3775
869,3663
870,3589
871,3515
872,3307
873,3274
874,3268
875,3248
876,3168
877,3098
878,3006
879,3012
880,2982
881,2872
882,2882
883,2787
884,2736
885,2635
886,2572
887,2539
888,2455
889,2472
890,2326
891,2267
892,2181
893,2174
894,2087
895,1994
896,2033
897,1960
898,2012
899,1972
900,1814
901,1873
902,1838
903,1770
904,1707
905,1794
906,1751
907,1724
908,1858
909,1710
910,1864
911,1854
912,1781
913,1778
914,1861
915,1770
916,1824
917,1823
918,1994
919,1922
920,1865
921,2024
922,2066
923,2093
924,1998
925,2112
926,2134
927,2127
928,2161
929,2155
930,2191
931,2313
932,2141
933,2219
934,2287
935,2342
936,2309
937,2416
938,2461
939,2352
940,2273
941,2330
942,2283
943,2263
944,2312
945,2327
946,2182
947,2227
948,2311
949,2266
950,2308
951,2278
952,2290
953,2155
954,2213
955,2210
956,2241
957,2110
958,1996
959,2103
960,2024
961,1999
962,1948
963,1994
964,1967
965,1849
966,1727
967,1644
968,1620
969,1724
970,1716
971,1720
972,1590
973,1741
974,1548
975,1488
976,1568
977,1445
978,1612
979,1457
980,1471
981,1607
982,1657
983,1554
984,1356
985,1433
986,1447
987,1325
988,1382
989,1261
990,1443
991,1397
992,1301
993,1365
994,1519
995,1225
996,1149
997,1197
998,1331
999,1240
1000,1352
